# TELESCOPE = Liverpool Telescope
# INSTRUMENT = SPRAT
# PROPOSAL = PL22B16
# OBJECT = 2022wtn
# RA = 23:23:23.778
# DEC = 10:41:7.99
# DATE-OBS = 2022-11-20T20:10:41.684
# MJD-OBS = 59903.84076
# EXPTIME-OBS = 2100.0s
# AIRMASS-OBS = 1.0573
# SEEING-OBS = 1.068386
# wl fl
# [A] [Normalised]
4020.000000 1.42836
4029.200000 0.776484
4038.400000 1.21119
4047.600000 0.875218
4056.800000 0.875223
4066.000000 0.993239
4075.200000 1.21148
4084.400000 1.1759
4093.600000 1.30312
4102.800000 1.19354
4112.000000 0.874605
4121.200000 0.842842
4130.400000 0.707148
4139.600000 0.889768
4148.800000 1.07075
4158.000000 0.938334
4167.200000 0.994287
4176.400000 1.01529
4185.600000 0.952773
4194.800000 1.00876
4204.000000 0.802665
4213.200000 1.09371
4222.400000 1.05393
4231.600000 0.921646
4240.800000 0.895192
4250.000000 0.927837
4259.200000 1.00584
4268.400000 1.04148
4277.600000 1.12472
4286.800000 1.13538
4296.000000 1.17738
4305.200000 1.08906
4314.400000 1.09716
4323.600000 1.03363
4332.800000 0.953356
4342.000000 1.07427
4351.200000 1.05474
4360.400000 1.07407
4369.600000 1.08981
4378.800000 1.1123
4388.000000 1.02553
4397.200000 0.919855
4406.400000 0.70058
4415.600000 1.07253
4424.800000 1.06461
4434.000000 1.01417
4443.200000 1.05031
4452.400000 1.05873
4461.600000 1.09319
4470.800000 0.962719
4480.000000 0.985417
4489.200000 0.927706
4498.400000 0.857526
4507.600000 1.17935
4516.800000 0.954445
4526.000000 0.957118
4535.200000 1.0299
4544.400000 1.03887
4553.600000 1.00701
4562.800000 1.04423
4572.000000 1.03707
4581.200000 1.04312
4590.400000 0.996757
4599.600000 1.02471
4608.800000 0.999427
4618.000000 1.00275
4627.200000 1.0296
4636.400000 1.03701
4645.600000 1.03472
4654.800000 0.952813
4664.000000 0.971303
4673.200000 1.05608
4682.400000 0.955881
4691.600000 1.04068
4700.800000 1.1206
4710.000000 1.05074
4719.200000 1.1055
4728.400000 1.20633
4737.600000 1.07416
4746.800000 1.08216
4756.000000 1.03987
4765.200000 1.06993
4774.400000 1.07779
4783.600000 1.04174
4792.800000 1.077
4802.000000 1.13521
4811.200000 1.14058
4820.400000 1.08755
4829.600000 1.14404
4838.800000 1.08656
4848.000000 1.13379
4857.200000 1.2217
4866.400000 1.23457
4875.600000 1.23234
4884.800000 1.18847
4894.000000 1.13761
4903.200000 1.11247
4912.400000 1.18749
4921.600000 1.21786
4930.800000 1.18098
4940.000000 1.06387
4949.200000 1.14841
4958.400000 1.16333
4967.600000 1.11758
4976.800000 1.05435
4986.000000 1.11348
4995.200000 1.0307
5004.400000 1.02349
5013.600000 1.06778
5022.800000 1.04722
5032.000000 1.01934
5041.200000 1.1304
5050.400000 1.09347
5059.600000 1.04491
5068.800000 1.16758
5078.000000 1.07191
5087.200000 1.18287
5096.400000 1.18693
5105.600000 1.21256
5114.800000 1.12569
5124.000000 1.084486
5133.200000 1.06137
5142.400000 1.04061
5151.600000 1.0494
5160.800000 1.01816
5170.000000 0.975725
5179.200000 0.998078
5188.400000 1.07369
5197.600000 1.15504
5206.800000 1.09501
5216.000000 1.06802
5225.200000 1.05047
5234.400000 1.09588
5243.600000 1.1956
5252.800000 1.36475
5262.000000 1.16781
5271.200000 1.03268
5280.400000 1.03048
5289.600000 1.06631
5298.800000 1.03167
5308.000000 0.997218
5317.200000 1.09067
5326.400000 1.01505
5335.600000 0.969154
5344.800000 1.00784
5354.000000 0.975851
5363.200000 0.993465
5372.400000 0.957251
5381.600000 1.029
5390.800000 1.01939
5400.000000 0.928841
5409.200000 0.944908
5418.400000 0.926898
5427.600000 0.979762
5436.800000 0.905119
5446.000000 0.947983
5455.200000 0.958504
5464.400000 0.923513
5473.600000 0.907298
5482.800000 1.00028
5492.000000 0.972575
5501.200000 0.954649
5510.400000 0.934088
5519.600000 0.938909
5528.800000 0.974842
5538.000000 0.912175
5547.200000 0.965089
5556.400000 1.02506
5565.600000 0.987896
5574.800000 1.06194
5584.000000 0.893651
5593.200000 0.943719
5602.400000 0.986468
5611.600000 1.00087
5620.800000 0.977666
5630.000000 0.987966
5639.200000 1.04215
5648.400000 0.93427
5657.600000 0.952312
5666.800000 0.958427
5676.000000 1.01614
5685.200000 0.978968
5694.400000 0.922744
5703.600000 1.05247
5712.800000 1.04854
5722.000000 0.994347
5731.200000 1.01549
5740.400000 0.925352
5749.600000 0.952359
5758.800000 0.941791
5768.000000 0.974004
5777.200000 0.919656
5786.400000 0.89777
5795.600000 0.929755
5804.800000 0.898088
5814.000000 0.987244
5823.200000 0.965087
5832.400000 0.927368
5841.600000 0.947152
5850.800000 0.994762
5860.000000 0.981574
5869.200000 0.965313
5878.400000 0.876305
5887.600000 0.933979
5896.800000 0.9534
5906.000000 0.921467
5915.200000 0.939362
5924.400000 0.980097
5933.600000 0.989635
5942.800000 0.968639
5952.000000 1.00762
5961.200000 0.954251
5970.400000 0.973075
5979.600000 0.930165
5988.800000 1.02987
5998.000000 0.985225
6007.200000 1.02461
6016.400000 1.03543
6025.600000 0.984963
6034.800000 1.06506
6044.000000 0.926723
6053.200000 0.906264
6062.400000 0.982536
6071.600000 0.978397
6080.800000 0.880144
6090.000000 0.999923
6099.200000 1.01202
6108.400000 1.03825
6117.600000 1.04836
6126.800000 1.03129
6136.000000 1.01118
6145.200000 1.01259
6154.400000 1.03444
6163.600000 0.997499
6172.800000 1.05587
6182.000000 0.953342
6191.200000 0.91931
6200.400000 1.00246
6209.600000 0.987815
6218.800000 1.01279
6228.000000 1.03214
6237.200000 0.941374
6246.400000 0.977877
6255.600000 0.911484
6264.800000 0.914604
6274.000000 0.951358
6283.200000 0.981256
6292.400000 0.902252
6301.600000 1.01965
6310.800000 0.984292
6320.000000 0.953079
6329.200000 1.01943
6338.400000 0.991061
6347.600000 1.0072
6356.800000 0.984187
6366.000000 1.00055
6375.200000 0.86193
6384.400000 0.935187
6393.600000 0.944852
6402.800000 1.00965
6412.000000 0.926134
6421.200000 0.915314
6430.400000 0.961572
6439.600000 0.938595
6448.800000 0.941284
6458.000000 0.964478
6467.200000 0.925277
6476.400000 0.860232
6485.600000 0.959334
6494.800000 0.973443
6504.000000 0.926715
6513.200000 0.861347
6522.400000 0.990325
6531.600000 0.84377
6540.800000 0.875704
6550.000000 0.867326
6559.200000 0.938903
6568.400000 0.902473
6577.600000 0.902321
6586.800000 0.864667
6596.000000 0.955293
6605.200000 0.915799
6614.400000 0.90521
6623.600000 0.863779
6632.800000 0.895552
6642.000000 1.038228
6651.200000 0.917234
6660.400000 0.900951
6669.600000 0.993046
6678.800000 0.945783
6688.000000 1.10229
6697.200000 0.94707
6706.400000 0.863865
6715.600000 0.940939
6724.800000 0.939198
6734.000000 0.990211
6743.200000 0.954807
6752.400000 0.832662
6761.600000 0.99531
6770.800000 0.930812
6780.000000 0.971595
6789.200000 0.898635
6798.400000 0.962012
6807.600000 0.924925
6816.800000 0.969697
6826.000000 0.967156
6835.200000 1.0946
6844.400000 1.07619
6853.600000 1.05817
6862.800000 1.06684
6872.000000 1.04316
6881.200000 1.55011
6890.400000 1.41678
6899.600000 1.34062
6908.800000 1.41407
6918.000000 1.07451
6927.200000 0.980579
6936.400000 0.944455
6945.600000 1.00538
6954.800000 0.932828
6964.000000 0.939247
6973.200000 1.00037
6982.400000 1.04829
6991.600000 0.891962
7000.800000 0.886158
7010.000000 1.05128
7019.200000 0.947849
7028.400000 0.940638
7037.600000 0.995904
7046.800000 1.04148
7056.000000 1.10162
7065.200000 0.929712
7074.400000 0.844738
7083.600000 0.868254
7092.800000 0.93971
7102.000000 0.868228
7111.200000 0.88577
7120.400000 0.877784
7129.600000 0.990596
7138.800000 0.91902
7148.000000 0.867684
7157.200000 0.888739
7166.400000 0.867715
7175.600000 0.897094
7184.800000 0.776504
7194.000000 0.786616
7203.200000 0.758362
7212.400000 0.869611
7221.600000 0.838635
7230.800000 0.894998
7240.000000 1.11749
7249.200000 0.912175
7258.400000 0.824405
7267.600000 0.928424
7276.800000 0.834575
7286.000000 0.862785
7295.200000 0.880705
7304.400000 0.85526
7313.600000 0.860996
7322.800000 0.762108
7332.000000 0.818759
7341.200000 0.981508
7350.400000 0.803034
7359.600000 1.04288
7368.800000 0.881352
7378.000000 0.949962
7387.200000 0.821625
7396.400000 0.716204
7405.600000 0.897737
7414.800000 0.866117
7424.000000 0.902683
7433.200000 0.769536
7442.400000 0.826142
7451.600000 0.894077
7460.800000 0.776177
7470.000000 0.781538
7479.200000 0.935662
7488.400000 0.789938
7497.600000 0.723128
7506.800000 0.809415
7516.000000 0.810286
7525.200000 0.575507
7534.400000 0.946021
7543.600000 0.790401
7552.800000 0.828978
7562.000000 0.749141
7571.200000 0.814292
7580.400000 0.821179
7589.600000 0.61256
7598.800000 0.352628
7608.000000 0.148034
7617.200000 0.430655
7626.400000 0.450732
7635.600000 0.583823
7644.800000 0.521777
7654.000000 0.626869
7663.200000 0.700575
7672.400000 0.724145
7681.600000 0.83335
7690.800000 0.703787
7700.000000 0.820842
7709.200000 0.971753
7718.400000 1.01435
7727.600000 0.789713
7736.800000 0.517987
7746.000000 0.619229
7755.200000 0.958415
7764.400000 0.948979
7773.600000 0.960284
7782.800000 0.74492
7792.000000 0.698245
7801.200000 0.830853
7810.400000 1.07657
7819.600000 0.801342
7828.800000 0.791757
7838.000000 0.579627
7847.200000 0.795673
7856.400000 0.560599
7865.600000 0.412384
7874.800000 1.01375
7884.000000 0.883642
7893.200000 0.842405
7902.400000 0.720338
7911.600000 0.656181
7920.800000 0.644168
7930.000000 0.508366
7939.200000 0.311074
7948.400000 0.749969
7957.600000 1.2633
7966.800000 0.676146
7976.000000 0.19333
7985.200000 0.559031
7994.400000 0.64213
